badWords,neutralWords,colour,trials.thisRepN,trials.thisTrialN,trials.thisN,trials.thisIndex,trials_2.thisRepN,trials_2.thisTrialN,trials_2.thisN,trials_2.thisIndex,instrText.started,instrText.stopped,keyResp.keys,keyResp.rt,keyResp.started,keyResp.stopped,instrText_2.started,instrText_2.stopped,keyResp_2.keys,keyResp_2.rt,keyResp_2.started,keyResp_2.stopped,textStroopWord.started,textStroopWord.stopped,response.keys,response.corr,response.rt,response.started,response.stopped,image.started,image.stopped,key_resp_2.keys,key_resp_2.rt,key_resp_2.started,key_resp_2.stopped,text.started,text.stopped,key_resp.keys,key_resp.rt,key_resp.started,key_resp.stopped,participant,session,date,expName,psychopyVersion,frameRate,
,,,,,,,,,,,18.028798699990148,None,z,1.970639500010293,18.028798699990148,None,,,,,,,,,,,,,,,,,,,,,,,,,,,001,2022-09-17_14h53.45.935,Stroop,2022.1.4,59.970770240442064,
,,,,,,,,,,,,,,,,,20.02823999998509,None,space,0.6117679000017233,20.02823999998509,None,,,,,,,,,,,,,,,,,,,,,001,2022-09-17_14h53.45.935,Stroop,2022.1.4,59.970770240442064,
Złość,Gość,red,0,0,0,0,,,,,,,,,,,,,,,,,21.66154029997415,None,z,0,1.4672579000180122,21.66154029997415,None,,,,,,,,,,,,,,001,2022-09-17_14h53.45.935,Stroop,2022.1.4,59.970770240442064,
Śmierć,Pięć,yellow,0,1,1,3,,,,,,,,,,,,,,,,,24.144918799982406,None,x,0,0.24800980000873096,24.144918799982406,None,,,,,,,,,,,,,,001,2022-09-17_14h53.45.935,Stroop,2022.1.4,59.970770240442064,
Amputacja,Kreacja,red,0,2,2,8,,,,,,,,,,,,,,,,,25.394913399999496,None,x,0,0.26116710001952015,25.394913399999496,None,,,,,,,,,,,,,,001,2022-09-17_14h53.45.935,Stroop,2022.1.4,59.970770240442064,
Bić,Nić,blue,0,3,3,18,,,,,,,,,,,,,,,,,26.661650099995313,None,x,0,0.08242120000068098,26.661650099995313,None,,,,,,,,,,,,,,001,2022-09-17_14h53.45.935,Stroop,2022.1.4,59.970770240442064,
Więzienie,Schronienie,blue,0,4,4,6,,,,,,,,,,,,,,,,,27.745131499978015,None,x,0,0.23906350001925603,27.745131499978015,None,,,,,,,,,,,,,,001,2022-09-17_14h53.45.935,Stroop,2022.1.4,59.970770240442064,
Brud,Klub,red,0,5,5,12,,,,,,,,,,,,,,,,,28.99490649998188,None,n,0,0.22040049999486655,28.99490649998188,None,,,,,,,,,,,,,,001,2022-09-17_14h53.45.935,Stroop,2022.1.4,59.970770240442064,
Psychoza,Glukoza,green,0,6,6,9,,,,,,,,,,,,,,,,,30.228226399980485,None,m,0,0.08407969999825582,30.228226399980485,None,,,,,,,,,,,,,,001,2022-09-17_14h53.45.935,Stroop,2022.1.4,59.970770240442064,
Gwałt,Skaut,green,0,7,7,1,,,,,,,,,,,,,,,,,31.328237299981993,None,m,0,0.23922710001352243,31.328237299981993,None,,,,,,,,,,,,,,001,2022-09-17_14h53.45.935,Stroop,2022.1.4,59.970770240442064,
Choroba,Gospoda,yellow,0,8,8,7,,,,,,,,,,,,,,,,,32.57838179997634,None,m,0,0.2532346000079997,32.57838179997634,None,,,,,,,,,,,,,,001,2022-09-17_14h53.45.935,Stroop,2022.1.4,59.970770240442064,
Mrok,Skok,blue,0,9,9,2,,,,,,,,,,,,,,,,,33.84486349998042,None,m,0,0.4841254999919329,33.84486349998042,None,,,,,,,,,,,,,,001,2022-09-17_14h53.45.935,Stroop,2022.1.4,59.970770240442064,
Bieda,Dieta,yellow,0,10,10,11,,,,,,,,,,,,,,,,,35.34489089998533,None,m,0,0.07106760001624934,35.34489089998533,None,,,,,,,,,,,,,,001,2022-09-17_14h53.45.935,Stroop,2022.1.4,59.970770240442064,
Terroryzm,Behawioryzm,green,0,11,11,17,,,,,,,,,,,,,,,,,36.4283120999753,None,m,0,0.4189646000158973,36.4283120999753,None,,,,,,,,,,,,,,001,2022-09-17_14h53.45.935,Stroop,2022.1.4,59.970770240442064,
Pedofil,Profil,yellow,0,12,12,15,,,,,,,,,,,,,,,,,37.86153649998596,None,m,0,0.2589070000103675,37.86153649998596,None,,,,,,,,,,,,,,001,2022-09-17_14h53.45.935,Stroop,2022.1.4,59.970770240442064,
Wojna,Wolna,yellow,0,13,13,19,,,,,,,,,,,,,,,,,39.128161899978295,None,m,0,0.21538380000856705,39.128161899978295,None,,,,,,,,,,,,,,001,2022-09-17_14h53.45.935,Stroop,2022.1.4,59.970770240442064,
Przemoc,Równonoc,red,0,14,14,16,,,,,,,,,,,,,,,,,40.34480849999818,None,m,0,0.10274319999734871,40.34480849999818,None,,,,,,,,,,,,,,001,2022-09-17_14h53.45.935,Stroop,2022.1.4,59.970770240442064,
Krew,Brew,green,0,15,15,13,,,,,,,,,,,,,,,,,41.46160099998815,None,m,0,0.25009420001879334,41.46160099998815,None,,,,,,,,,,,,,,001,2022-09-17_14h53.45.935,Stroop,2022.1.4,59.970770240442064,
Molestowanie,Bieganie,blue,0,16,16,14,,,,,,,,,,,,,,,,,42.711454099975526,None,m,0,0.01619969998137094,42.711454099975526,None,,,,,,,,,,,,,,001,2022-09-17_14h53.45.935,Stroop,2022.1.4,59.970770240442064,
Maczeta,Skarpeta,green,0,17,17,5,,,,,,,,,,,,,,,,,43.72820089999004,None,m,0,0.19251369999255985,43.72820089999004,None,,,,,,,,,,,,,,001,2022-09-17_14h53.45.935,Stroop,2022.1.4,59.970770240442064,
Węże,Jeże,red,0,18,18,4,,,,,,,,,,,,,,,,,44.92841199997929,None,m,0,0.1994002999854274,44.92841199997929,None,,,,,,,,,,,,,,001,2022-09-17_14h53.45.935,Stroop,2022.1.4,59.970770240442064,
Zabijanie,Podjadanie,blue,0,19,19,10,,,,,,,,,,,,,,,,,46.12832329998491,None,m,0,0.1034862999804318,46.12832329998491,None,,,,,,,,,,,,,,001,2022-09-17_14h53.45.935,Stroop,2022.1.4,59.970770240442064,
,,,,,,,,,,,,,,,,,,,,,,,,,,,,,,46.26162059998023,None,space,0.9946460999781266,46.26162059998023,None,,,,,,,,001,2022-09-17_14h53.45.935,Stroop,2022.1.4,59.970770240442064,
Węże,Jeże,red,,,,,0,0,0,4,,,,,,,,,,,,,,,,,,,,,,,,,,48.278383499971824,None,m,0.41017090002424084,48.278383499971824,None,,001,2022-09-17_14h53.45.935,Stroop,2022.1.4,59.970770240442064,
Przemoc,Równonoc,red,,,,,0,1,1,16,,,,,,,,,,,,,,,,,,,,,,,,,,49.69500649999827,None,m,0.24067379999905825,49.69500649999827,None,,001,2022-09-17_14h53.45.935,Stroop,2022.1.4,59.970770240442064,
Pedofil,Profil,yellow,,,,,0,2,2,15,,,,,,,,,,,,,,,,,,,,,,,,,,50.944989199982956,None,n,0.08668949999264441,50.944989199982956,None,,001,2022-09-17_14h53.45.935,Stroop,2022.1.4,59.970770240442064,
Maczeta,Skarpeta,green,,,,,0,3,3,5,,,,,,,,,,,,,,,,,,,,,,,,,,52.044900199980475,None,n,0.7073548000189476,52.044900199980475,None,,001,2022-09-17_14h53.45.935,Stroop,2022.1.4,59.970770240442064,
Terroryzm,Behawioryzm,green,,,,,0,4,4,17,,,,,,,,,,,,,,,,,,,,,,,,,,53.76162309999927,None,m,0.9824423999816645,53.76162309999927,None,,001,2022-09-17_14h53.45.935,Stroop,2022.1.4,59.970770240442064,
Choroba,Gospoda,yellow,,,,,0,5,5,7,,,,,,,,,,,,,,,,,,,,,,,,,,55.744946099992376,54.76155899997684,n,0.23831929999869317,55.744946099992376,None,,001,2022-09-17_14h53.45.935,Stroop,2022.1.4,59.970770240442064,
Gwałt,Skaut,green,,,,,0,6,6,1,,,,,,,,,,,,,,,,,,,,,,,,,,56.9949357000005,None,m,0.22938100001192652,56.9949357000005,None,,001,2022-09-17_14h53.45.935,Stroop,2022.1.4,59.970770240442064,
